{"data":[{"rt":3470.8150000078604,"stimulus":"<h4>Please consider this information carefully before deciding whether to participate in this research.</h4><h4>The purpose of this research is to examine how people consider possibilities. We are simply interested in your thought process. The study will take less than0 minutes to complete, and you will receive $0 on Amazon Mechanical Turk. There are no anticipated risks associated with participating in this study. The effects of participating should be comparable to those you would ordinarily experience from viewing a computer monitor and using a mouse or keyboard for a similar amount of time.</h4> <h4>Your participation in this study is completely voluntary and you may refuse to participate or you may choose to withdraw at any time without penalty or loss of benefits to which you are otherwise entitled. Your participation in this study will remain confidential. No personally identifiable information will be associated with your data. Also, all analyses of the data will be averaged across all the participants, so your individual responses will never be specifically analyzed. </h4> <h4>Agreement: The nature and purpose of this research have been sufficiently explained and I agree to participate in this study. I understand that I am free to withdraw at any time without incurring any penalty. Please consent by clicking the button below to continue. Otherwise, please exit the study at this time.</h4>","button_pressed":"0","trial_type":"html-button-response","trial_index":0,"time_elapsed":3479,"internal_node_id":"0.0-0.0","turk_code":"ljey1g8pn0qe","exp_type":"generation"},{"rt":950.6499999843072,"stimulus":"<div class='center-content'><br><br><br><br>Welcome to the HIT. Press any key to begin.","key_press":32,"trial_type":"html-keyboard-response","trial_index":1,"time_elapsed":4431,"internal_node_id":"0.0-1.0","turk_code":"ljey1g8pn0qe","exp_type":"generation"},{"rt":49926.39500001678,"responses":"{\"subject_id\":\"testID\"}","trial_type":"survey-text","trial_index":2,"time_elapsed":54365,"internal_node_id":"0.0-2.0","turk_code":"ljey1g8pn0qe","exp_type":"generation"},{"rt":593.6750000109896,"stimulus":"In this experiment, you will be asked to list things in various categories. Please list whatever comes to mind, as it comes to mind.<br><br>Press any key to begin.","key_press":32,"trial_type":"html-keyboard-response","trial_index":3,"time_elapsed":54960,"internal_node_id":"0.0-3.0","turk_code":"ljey1g8pn0qe","exp_type":"generation"},{"rt":7895.544999977574,"responses":"{\"sports\":\"soccer\",\"Q1\":\"x\",\"Q2\":\"x\",\"Q3\":\"xx\",\"Q4\":\"x\",\"Q5\":\"x\",\"Q6\":\"x\",\"Q7\":\"x\",\"Q8\":\"x\",\"Q9\":\"football\"}","trial_type":"survey-text","trial_index":4,"time_elapsed":62866,"internal_node_id":"0.0-4.0","turk_code":"ljey1g8pn0qe","exp_type":"generation"},{"rt":8244.37499998021,"responses":"{\"chain restaurants\":\"wendys\",\"Q1\":\"x\",\"Q2\":\"x\",\"Q3\":\"x\",\"Q4\":\"x\",\"Q5\":\"xx\",\"Q6\":\"x\",\"Q7\":\"x\",\"Q8\":\"x\",\"Q9\":\"mcdonalds\"}","trial_type":"survey-text","trial_index":5,"time_elapsed":71125,"internal_node_id":"0.0-5.0","turk_code":"ljey1g8pn0qe","exp_type":"generation"},{"rt":9036.825000017416,"responses":"{\"types of furniture\":\"chair\",\"Q1\":\"x\",\"Q2\":\"x\",\"Q3\":\"x\",\"Q4\":\"x\",\"Q5\":\"x\",\"Q6\":\"x\",\"Q7\":\"x\",\"Q8\":\"x\",\"Q9\":\"couch\"}","trial_type":"survey-text","trial_index":6,"time_elapsed":80177,"internal_node_id":"0.0-6.0","turk_code":"ljey1g8pn0qe","exp_type":"generation"},{"rt":7143.074999999953,"responses":"{\"kitchen appliances\":\"sink\",\"Q1\":\"x\",\"Q2\":\"x\",\"Q3\":\"x\",\"Q4\":\"x\",\"Q5\":\"x\",\"Q6\":\"x\",\"Q7\":\"x\",\"Q8\":\"x\",\"Q9\":\"blender\"}","trial_type":"survey-text","trial_index":7,"time_elapsed":87327,"internal_node_id":"0.0-7.0","turk_code":"ljey1g8pn0qe","exp_type":"generation"},{"rt":12796.4450000145,"responses":"{\"jobs\":\"plumber\",\"Q1\":\"x\",\"Q2\":\"x\",\"Q3\":\"x\",\"Q4\":\"x\",\"Q5\":\"x\",\"Q6\":\"x\",\"Q7\":\"x\",\"Q8\":\"x\",\"Q9\":\"realtor\"}","trial_type":"survey-text","trial_index":8,"time_elapsed":100130,"internal_node_id":"0.0-8.0","turk_code":"ljey1g8pn0qe","exp_type":"generation"},{"rt":6786.560000007739,"responses":"{\"clothing items\":\"belt\",\"Q1\":\"x\",\"Q2\":\"x\",\"Q3\":\"x\",\"Q4\":\"x\",\"Q5\":\"x\",\"Q6\":\"x\",\"Q7\":\"x\",\"Q8\":\"x\",\"Q9\":\"jeans\"}","trial_type":"survey-text","trial_index":9,"time_elapsed":106927,"internal_node_id":"0.0-9.0","turk_code":"ljey1g8pn0qe","exp_type":"generation"},{"rt":11027.210000000196,"responses":"{\"breakfast foods\":\"muffin\",\"Q1\":\"x\",\"Q2\":\"x\",\"Q3\":\"x\",\"Q4\":\"x\",\"Q5\":\"x\",\"Q6\":\"x\",\"Q7\":\"x\",\"Q8\":\"x\",\"Q9\":\"bagel\"}","trial_type":"survey-text","trial_index":10,"time_elapsed":117962,"internal_node_id":"0.0-10.0","turk_code":"ljey1g8pn0qe","exp_type":"generation"},{"rt":12424.800000007963,"responses":"{\"zoo animals\":\"monkey\",\"Q1\":\"x\",\"Q2\":\"x\",\"Q3\":\"x\",\"Q4\":\"x\",\"Q5\":\"x\",\"Q6\":\"x\",\"Q7\":\"x\",\"Q8\":\"x\",\"Q9\":\"lion\"}","trial_type":"survey-text","trial_index":11,"time_elapsed":130401,"internal_node_id":"0.0-11.0","turk_code":"ljey1g8pn0qe","exp_type":"generation"},{"rt":9156.534999987343,"responses":"{\"holidays\":\"new years\",\"Q1\":\"x\",\"Q2\":\"x\",\"Q3\":\"x\",\"Q4\":\"x\",\"Q5\":\"x\",\"Q6\":\"x\",\"Q7\":\"x\",\"Q8\":\"x\",\"Q9\":\"christams\"}","trial_type":"survey-text","trial_index":12,"time_elapsed":139571,"internal_node_id":"0.0-12.0","turk_code":"ljey1g8pn0qe","exp_type":"generation"},{"rt":10880.700000008801,"responses":"{\"vegetables\":\"turnips\",\"Q1\":\"x\",\"Q2\":\"x\",\"Q3\":\"x\",\"Q4\":\"x\",\"Q5\":\"x\",\"Q6\":\"x\",\"Q7\":\"x\",\"Q8\":\"x\",\"Q9\":\"carrots\"}","trial_type":"survey-text","trial_index":13,"time_elapsed":150459,"internal_node_id":"0.0-13.0","turk_code":"ljey1g8pn0qe","exp_type":"generation"},{"rt":7478.780000004917,"responses":"{\"Q0\":\"21\",\"Q1\":\"english\",\"Q2\":\"american\",\"Q3\":\"usa\"}","trial_type":"survey-text","trial_index":14,"time_elapsed":157942,"internal_node_id":"0.0-14.0","turk_code":"ljey1g8pn0qe","exp_type":"generation"},{"rt":5109.114999999292,"responses":"{\"Q0\":\"Female\",\"Q1\":\"Yes\",\"Q2\":\"Some college or university\"}","question_order":"[0,1,2]","trial_type":"survey-multi-choice","trial_index":15,"time_elapsed":163062,"internal_node_id":"0.0-15.0","turk_code":"ljey1g8pn0qe","exp_type":"generation"},{"rt":1361.2300000095274,"stimulus":"<h4>Thank you for your participation!</h4><h4>In order to complete this HIT, you must enter the code below into Turk.</h4><h4>Your secret completion code is:<br><br>ljey1g8pn0qe<br><br>Copy this code now.</h4><h4>Once you've copied it, click the button below to leave this window.</h4>","button_pressed":"0","trial_type":"html-button-response","trial_index":16,"time_elapsed":164425,"internal_node_id":"0.0-16.0","turk_code":"ljey1g8pn0qe","exp_type":"generation"}]}