{"data":[{"rt":2170.8000000217,"stimulus":"<h4>Please consider this information carefully before deciding whether to participate in this research.</h4><h4>The purpose of this research is to examine how people consider possibilities. We are simply interested in your thought process. The study will take less than0 minutes to complete, and you will receive $0 on Amazon Mechanical Turk. There are no anticipated risks associated with participating in this study. The effects of participating should be comparable to those you would ordinarily experience from viewing a computer monitor and using a mouse or keyboard for a similar amount of time.</h4> <h4>Your participation in this study is completely voluntary and you may refuse to participate or you may choose to withdraw at any time without penalty or loss of benefits to which you are otherwise entitled. Your participation in this study will remain confidential. No personally identifiable information will be associated with your data. Also, all analyses of the data will be averaged across all the participants, so your individual responses will never be specifically analyzed. </h4> <h4>Agreement: The nature and purpose of this research have been sufficiently explained and I agree to participate in this study. I understand that I am free to withdraw at any time without incurring any penalty. Please consent by clicking the button below to continue. Otherwise, please exit the study at this time.</h4>","button_pressed":"0","trial_type":"html-button-response","trial_index":0,"time_elapsed":2179,"internal_node_id":"0.0-0.0","turk_code":"jgqf32cwztjy","exp_type":"response"},{"rt":627.730000007432,"stimulus":"<div class='center-content'><br><br><br><br>Welcome to the HIT. Press any key to begin.","key_press":32,"trial_type":"html-keyboard-response","trial_index":1,"time_elapsed":2809,"internal_node_id":"0.0-1.0","turk_code":"jgqf32cwztjy","exp_type":"response"},{"rt":2949.770000006538,"responses":"{\"subject_id\":\"testID2\"}","trial_type":"survey-text","trial_index":2,"time_elapsed":5773,"internal_node_id":"0.0-2.0","turk_code":"jgqf32cwztjy","exp_type":"response"},{"rt":1641.940000001341,"stimulus":"In this experiment, you will be asked to answer questions, and then to reflect on the process which led you to your answer.<br><br> Press any key to begin.","key_press":32,"trial_type":"html-keyboard-response","trial_index":3,"time_elapsed":7416,"internal_node_id":"0.0-3.0","turk_code":"jgqf32cwztjy","exp_type":"response"},{"rt":3292.154999973718,"responses":"{\"What clothing item is the most expensive for its weight?\":\"watch\"}","trial_type":"survey-text","trial_index":4,"time_elapsed":10712,"internal_node_id":"0.0-4.0","turk_code":"jgqf32cwztjy","exp_type":"response"},{"rt":3980.7199999922886,"responses":"{\"clothing items\":\"shirt\",\"Q1\":\"x\",\"Q2\":\"x\",\"Q3\":\"x\",\"Q4\":\"x\",\"Q5\":\"x\",\"Q6\":\"x\",\"Q7\":\"x\"}","trial_type":"survey-text","trial_index":5,"time_elapsed":14700,"internal_node_id":"0.0-5.0","turk_code":"jgqf32cwztjy","exp_type":"response"},{"rt":3994.1800000087824,"responses":"{\"What breakfast food takes the longest to eat?\":\"pancakes\"}","trial_type":"survey-text","trial_index":6,"time_elapsed":18701,"internal_node_id":"0.0-6.0","turk_code":"jgqf32cwztjy","exp_type":"response"},{"rt":2899.665000004461,"responses":"{\"breakfast foods\":\"x\",\"Q1\":\"x\",\"Q2\":\"xx\",\"Q3\":\"x\",\"Q4\":\"x\",\"Q5\":\"x\",\"Q6\":\"x\",\"Q7\":\"x\"}","trial_type":"survey-text","trial_index":7,"time_elapsed":21607,"internal_node_id":"0.0-7.0","turk_code":"jgqf32cwztjy","exp_type":"response"},{"rt":3277.0200000086334,"responses":"{\"What job requires the best eyesight?\":\"mechanic\"}","trial_type":"survey-text","trial_index":8,"time_elapsed":24890,"internal_node_id":"0.0-8.0","turk_code":"jgqf32cwztjy","exp_type":"response"},{"rt":7233.794999978272,"responses":"{\"jobs\":\"plumber\",\"Q1\":\"x\",\"Q2\":\"x\",\"Q3\":\"x\",\"Q4\":\"x\",\"Q5\":\"x\",\"Q6\":\"x\",\"Q7\":\"x\"}","trial_type":"survey-text","trial_index":9,"time_elapsed":32131,"internal_node_id":"0.0-9.0","turk_code":"jgqf32cwztjy","exp_type":"response"},{"rt":3397.225000022445,"responses":"{\"What zoo animal spends the most time awake?\":\"zebra\"}","trial_type":"survey-text","trial_index":10,"time_elapsed":35535,"internal_node_id":"0.0-10.0","turk_code":"jgqf32cwztjy","exp_type":"response"},{"rt":3540.584999980638,"responses":"{\"zoo animals\":\"bird\",\"Q1\":\"x\",\"Q2\":\"x\",\"Q3\":\"x\",\"Q4\":\"x\",\"Q5\":\"x\",\"Q6\":\"x\",\"Q7\":\"x\"}","trial_type":"survey-text","trial_index":11,"time_elapsed":39084,"internal_node_id":"0.0-11.0","turk_code":"jgqf32cwztjy","exp_type":"response"},{"rt":5311.3350000057835,"responses":"{\"What holiday has the worst food associated with it?\":\"st patricks day\"}","trial_type":"survey-text","trial_index":12,"time_elapsed":44401,"internal_node_id":"0.0-12.0","turk_code":"jgqf32cwztjy","exp_type":"response"},{"rt":3627.7199999894947,"responses":"{\"holidays\":\"new years\",\"Q1\":\"x\",\"Q2\":\"x\",\"Q3\":\"x\",\"Q4\":\"x\",\"Q5\":\"x\",\"Q6\":\"x\",\"Q7\":\"x\"}","trial_type":"survey-text","trial_index":13,"time_elapsed":48038,"internal_node_id":"0.0-13.0","turk_code":"jgqf32cwztjy","exp_type":"response"},{"rt":2447.8050000034273,"responses":"{\"What piece of furniture is the most flammable?\":\"chair\"}","trial_type":"survey-text","trial_index":14,"time_elapsed":50492,"internal_node_id":"0.0-14.0","turk_code":"jgqf32cwztjy","exp_type":"response"},{"rt":3543.7199999869335,"responses":"{\"types of furniture\":\"couch\",\"Q1\":\"x\",\"Q2\":\"x\",\"Q3\":\"x\",\"Q4\":\"x\",\"Q5\":\"x\",\"Q6\":\"x\",\"Q7\":\"x\"}","trial_type":"survey-text","trial_index":15,"time_elapsed":54044,"internal_node_id":"0.0-15.0","turk_code":"jgqf32cwztjy","exp_type":"response"},{"rt":4786.395000002813,"responses":"{\"What chain restaurant has the most colorful logo?\":\"mcdonalds\"}","trial_type":"survey-text","trial_index":16,"time_elapsed":58837,"internal_node_id":"0.0-16.0","turk_code":"jgqf32cwztjy","exp_type":"response"},{"rt":3197.329999995418,"responses":"{\"chain restaurants\":\"wendys\",\"Q1\":\"x\",\"Q2\":\"x\",\"Q3\":\"x\",\"Q4\":\"x\",\"Q5\":\"x\",\"Q6\":\"x\",\"Q7\":\"x\"}","trial_type":"survey-text","trial_index":17,"time_elapsed":62044,"internal_node_id":"0.0-17.0","turk_code":"jgqf32cwztjy","exp_type":"response"},{"rt":2525.3350000130013,"responses":"{\"What sport is easiest to learn?\":\"soccer\"}","trial_type":"survey-text","trial_index":18,"time_elapsed":64573,"internal_node_id":"0.0-18.0","turk_code":"jgqf32cwztjy","exp_type":"response"},{"rt":4330.695000011474,"responses":"{\"sports\":\"baseball\",\"Q1\":\"x\",\"Q2\":\"x\",\"Q3\":\"x\",\"Q4\":\"x\",\"Q5\":\"x\",\"Q6\":\"x\",\"Q7\":\"x\"}","trial_type":"survey-text","trial_index":19,"time_elapsed":68911,"internal_node_id":"0.0-19.0","turk_code":"jgqf32cwztjy","exp_type":"response"},{"rt":3064.5900000235997,"responses":"{\"What vegetable comes in the most colors?\":\"carrots\"}","trial_type":"survey-text","trial_index":20,"time_elapsed":71982,"internal_node_id":"0.0-20.0","turk_code":"jgqf32cwztjy","exp_type":"response"},{"rt":4265.805000002729,"responses":"{\"vegetables\":\"tomatos\",\"Q1\":\"x\",\"Q2\":\"x\",\"Q3\":\"x\",\"Q4\":\"xx\",\"Q5\":\"x\",\"Q6\":\"x\",\"Q7\":\"x\"}","trial_type":"survey-text","trial_index":21,"time_elapsed":76255,"internal_node_id":"0.0-21.0","turk_code":"jgqf32cwztjy","exp_type":"response"},{"rt":2514.4150000123773,"responses":"{\"What kitchen appliance is used the least?\":\"blender\"}","trial_type":"survey-text","trial_index":22,"time_elapsed":78776,"internal_node_id":"0.0-22.0","turk_code":"jgqf32cwztjy","exp_type":"response"},{"rt":10201.499999995576,"responses":"{\"kitchen appliances\":\"stove\",\"Q1\":\"x\",\"Q2\":\"x\",\"Q3\":\"x\",\"Q4\":\"x\",\"Q5\":\"x\",\"Q6\":\"x\",\"Q7\":\"x\"}","trial_type":"survey-text","trial_index":23,"time_elapsed":88985,"internal_node_id":"0.0-23.0","turk_code":"jgqf32cwztjy","exp_type":"response"},{"rt":7791.635000001406,"responses":"{\"Q0\":\"21\",\"Q1\":\"english\",\"Q2\":\"american\",\"Q3\":\"usa\"}","trial_type":"survey-text","trial_index":24,"time_elapsed":96789,"internal_node_id":"0.0-24.0","turk_code":"jgqf32cwztjy","exp_type":"response"},{"rt":5007.335000002058,"responses":"{\"Q0\":\"Female\",\"Q1\":\"Yes\",\"Q2\":\"Some college or university\"}","question_order":"[0,1,2]","trial_type":"survey-multi-choice","trial_index":25,"time_elapsed":101806,"internal_node_id":"0.0-25.0","turk_code":"jgqf32cwztjy","exp_type":"response"},{"rt":1231.6250000149012,"stimulus":"<h4>Thank you for your participation!</h4><h4>In order to complete this HIT, you must enter the code below into Turk.</h4><h4>Your secret completion code is:<br><br>jgqf32cwztjy<br><br>Copy this code now.</h4><h4>Once you've copied it, click the button below to leave this window.</h4>","button_pressed":"0","trial_type":"html-button-response","trial_index":26,"time_elapsed":103040,"internal_node_id":"0.0-26.0","turk_code":"jgqf32cwztjy","exp_type":"response"}]}
